[{"plugin_type":"eye-tracking-permission","code":"KAMI136","task_type":null,"config_id":null,"rt":9888,"stimulus":"<div style=\"max-width: 900px; margin:0 auto; text-align:left;\">\n          <h3>Eye tracking enabled</h3>\n          <p>This study will request access to your camera for gaze estimation (WebGazer).</p>\n          <p>If prompted, please allow camera access, then press any key to begin.</p>\n          <p style=\"opacity:0.75; font-size: 0.95em;\">Note: camera-based eye tracking typically requires HTTPS or localhost.</p>\n        </div>","response":" ","trial_type":"html-keyboard-response","trial_index":0,"plugin_version":"2.1.0","time_elapsed":9890},{"plugin_type":"task-break","code":"KAMI136","task_type":"rdm","config_id":"KAMI136-rdm-01","rt":1101,"stimulus":"<div style=\"max-width: 900px; margin: 0 auto; text-align:left;\">\n          <h3>Next task: rdm</h3>\n          <div style=\"opacity:0.75\">Code: KAMI136 • Config: KAMI136-rdm-01</div>\n          <div style=\"margin-top:12px; opacity:0.9\">Press any key to begin.</div>\n        </div>","response":" ","trial_type":"html-keyboard-response","trial_index":1,"plugin_version":"2.1.0","time_elapsed":23858},{"plugin_type":"html-keyboard-response","code":"KAMI136","task_type":"rdm","config_id":"KAMI136-rdm-01","rt":1436,"stimulus":"This is an experiment which consists of the Random Dot Motion task. Please respond to the stimuli by moving your mouse to the side of the circle that corresponds to the direction of the dots in the group that is the same color as the big circle. Press any key to continue.","response":" ","trial_type":"html-keyboard-response","trial_index":2,"plugin_version":"2.1.0","time_elapsed":25294},{"plugin_type":"rdm-continuous","code":"KAMI136","task_type":"rdm","config_id":"KAMI136-rdm-01","experiment_type":"continuous","frames_count":10,"ended_reason":"completed","records":[{"frame_index":0,"event":"response","t_ms":1379,"response_side":"right","response_key":null,"response_angle_deg":83.88094100216387,"response_angle_raw_deg":-6.119058997836108,"response_segment_index":0,"rt_ms":1379,"correct_side":"right","accuracy":true,"correctness":true},{"frame_index":0,"event":"frame_end","t_ms":2502,"ended_reason":"deadline","rdm":{"canvas_width":600,"canvas_height":600,"background_color":"#404040","shape":"circle","diameter":350,"center_x":300,"center_y":300,"total_dots":150,"dot_size":4,"dot_color":"#ffffff","lifetime_frames":60,"coherence":0.5,"direction":0,"speed":5,"noise_type":"random_direction","fixation_duration":500,"stimulus_duration":1500,"response_deadline":2500,"inter_trial_interval":1200,"frame_rate":60,"duration":30,"update_interval":16,"aperture_shape":"circle","aperture_size":350,"type":"rdm-dot-groups","_generated_from_block":true,"_block_index":0,"group_1_direction":180,"group_2_direction":0,"group_1_color":"#ff0066","group_2_color":"#0066ff","group_1_percentage":55,"group_1_coherence":0.10040317632608664,"group_1_speed":7.769437523482071,"group_2_coherence":0.5070447601260775,"group_2_speed":6.446360510681317,"group_2_percentage":45,"experiment_type":"continuous","cue_border_mode":"custom","cue_border_width":4,"cue_border_color":"#0066ff","response_target_group":2},"response":{"require_response":true,"response_device":"mouse","end_condition_on_response":false,"mouse_response":{"enabled":true,"mode":"aperture-segments","segments":2,"start_angle_deg":270,"selection_mode":"hover"},"target_group":"group_2","cue_border":{"enabled":true,"mode":"target-group-color","target_group":"group_2","color":"#0066ff","width":4}},"correct_side":"right","rt_ms":1379,"accuracy":true,"correctness":true,"response_side":"right","response_key":null,"response_angle_deg":83.88094100216387,"response_angle_raw_deg":-6.119058997836108,"response_segment_index":0},{"frame_index":1,"event":"response","t_ms":3840,"response_side":"right","response_key":null,"response_angle_deg":84.4537438931581,"response_angle_raw_deg":-5.546256106841886,"response_segment_index":0,"rt_ms":1338,"correct_side":"right","accuracy":true,"correctness":true},{"frame_index":1,"event":"frame_end","t_ms":5019,"ended_reason":"deadline","rdm":{"canvas_width":600,"canvas_height":600,"background_color":"#404040","shape":"circle","diameter":350,"center_x":300,"center_y":300,"total_dots":150,"dot_size":4,"dot_color":"#ffffff","lifetime_frames":60,"coherence":0.5,"direction":0,"speed":5,"noise_type":"random_direction","fixation_duration":500,"stimulus_duration":1500,"response_deadline":2500,"inter_trial_interval":1200,"frame_rate":60,"duration":30,"update_interval":16,"aperture_shape":"circle","aperture_size":350,"type":"rdm-dot-groups","_generated_from_block":true,"_block_index":1,"group_1_direction":180,"group_2_direction":0,"group_1_color":"#ff0066","group_2_color":"#0066ff","group_1_percentage":58,"group_1_coherence":0.22592993951478385,"group_1_speed":6.935664934388085,"group_2_coherence":0.5206371365978727,"group_2_speed":4.103518659639955,"group_2_percentage":42,"experiment_type":"continuous","cue_border_mode":"custom","cue_border_width":4,"cue_border_color":"#0066ff","response_target_group":2},"response":{"require_response":true,"response_device":"mouse","end_condition_on_response":false,"mouse_response":{"enabled":true,"mode":"aperture-segments","segments":2,"start_angle_deg":270,"selection_mode":"hover"},"target_group":"group_2","cue_border":{"enabled":true,"mode":"target-group-color","target_group":"group_2","color":"#0066ff","width":4}},"correct_side":"right","rt_ms":1338,"accuracy":true,"correctness":true,"response_side":"right","response_key":null,"response_angle_deg":84.4537438931581,"response_angle_raw_deg":-5.546256106841886,"response_segment_index":0},{"frame_index":2,"event":"frame_end","t_ms":7535,"ended_reason":"deadline","rdm":{"canvas_width":600,"canvas_height":600,"background_color":"#404040","shape":"circle","diameter":350,"center_x":300,"center_y":300,"total_dots":150,"dot_size":4,"dot_color":"#ffffff","lifetime_frames":60,"coherence":0.5,"direction":0,"speed":5,"noise_type":"random_direction","fixation_duration":500,"stimulus_duration":1500,"response_deadline":2500,"inter_trial_interval":1200,"frame_rate":60,"duration":30,"update_interval":16,"aperture_shape":"circle","aperture_size":350,"type":"rdm-dot-groups","_generated_from_block":true,"_block_index":2,"group_1_direction":180,"group_2_direction":0,"group_1_color":"#ff0066","group_2_color":"#0066ff","group_1_percentage":52,"group_1_coherence":0.2683837443074687,"group_1_speed":9.221099438218577,"group_2_coherence":0.6053819151691352,"group_2_speed":6.006992530785395,"group_2_percentage":48,"experiment_type":"continuous","cue_border_mode":"custom","cue_border_width":4,"cue_border_color":"#0066ff","response_target_group":2},"response":{"require_response":true,"response_device":"mouse","end_condition_on_response":false,"mouse_response":{"enabled":true,"mode":"aperture-segments","segments":2,"start_angle_deg":270,"selection_mode":"hover"},"target_group":"group_2","cue_border":{"enabled":true,"mode":"target-group-color","target_group":"group_2","color":"#0066ff","width":4}},"correct_side":"right","rt_ms":null,"accuracy":null,"correctness":null,"response_side":null,"response_key":null,"response_angle_deg":null,"response_angle_raw_deg":null,"response_segment_index":null},{"frame_index":3,"event":"response","t_ms":9278,"response_side":"left","response_key":null,"response_angle_deg":258.3344431165218,"response_angle_raw_deg":168.33444311652184,"response_segment_index":1,"rt_ms":1743,"correct_side":"left","accuracy":true,"correctness":true},{"frame_index":3,"event":"frame_end","t_ms":10052,"ended_reason":"deadline","rdm":{"canvas_width":600,"canvas_height":600,"background_color":"#404040","shape":"circle","diameter":350,"center_x":300,"center_y":300,"total_dots":150,"dot_size":4,"dot_color":"#ffffff","lifetime_frames":60,"coherence":0.5,"direction":0,"speed":5,"noise_type":"random_direction","fixation_duration":500,"stimulus_duration":1500,"response_deadline":2500,"inter_trial_interval":1200,"frame_rate":60,"duration":30,"update_interval":16,"aperture_shape":"circle","aperture_size":350,"type":"rdm-dot-groups","_generated_from_block":true,"_block_index":3,"group_1_direction":180,"group_2_direction":180,"group_1_color":"#ff0066","group_2_color":"#0066ff","group_1_percentage":57,"group_1_coherence":0.21211715129393874,"group_1_speed":6.428510374889898,"group_2_coherence":0.8941618389282701,"group_2_speed":7.457967539700027,"group_2_percentage":43,"experiment_type":"continuous","cue_border_mode":"custom","cue_border_width":4,"cue_border_color":"#0066ff","response_target_group":2},"response":{"require_response":true,"response_device":"mouse","end_condition_on_response":false,"mouse_response":{"enabled":true,"mode":"aperture-segments","segments":2,"start_angle_deg":270,"selection_mode":"hover"},"target_group":"group_2","cue_border":{"enabled":true,"mode":"target-group-color","target_group":"group_2","color":"#0066ff","width":4}},"correct_side":"left","rt_ms":1743,"accuracy":true,"correctness":true,"response_side":"left","response_key":null,"response_angle_deg":258.3344431165218,"response_angle_raw_deg":168.33444311652184,"response_segment_index":1},{"frame_index":4,"event":"response","t_ms":10286,"response_side":"left","response_key":null,"response_angle_deg":-81.01692176546157,"response_angle_raw_deg":-171.0169217654616,"response_segment_index":0,"rt_ms":234,"correct_side":"right","accuracy":false,"correctness":false},{"frame_index":4,"event":"frame_end","t_ms":12569,"ended_reason":"deadline","rdm":{"canvas_width":600,"canvas_height":600,"background_color":"#404040","shape":"circle","diameter":350,"center_x":300,"center_y":300,"total_dots":150,"dot_size":4,"dot_color":"#ffffff","lifetime_frames":60,"coherence":0.5,"direction":0,"speed":5,"noise_type":"random_direction","fixation_duration":500,"stimulus_duration":1500,"response_deadline":2500,"inter_trial_interval":1200,"frame_rate":60,"duration":30,"update_interval":16,"aperture_shape":"circle","aperture_size":350,"type":"rdm-dot-groups","_generated_from_block":true,"_block_index":4,"group_1_direction":0,"group_2_direction":0,"group_1_color":"#ff0066","group_2_color":"#0066ff","group_1_percentage":43,"group_1_coherence":0.33455613891230623,"group_1_speed":8.32615313036062,"group_2_coherence":0.858118923789022,"group_2_speed":7.839661213056084,"group_2_percentage":57,"experiment_type":"continuous","cue_border_mode":"custom","cue_border_width":4,"cue_border_color":"#0066ff","response_target_group":2},"response":{"require_response":true,"response_device":"mouse","end_condition_on_response":false,"mouse_response":{"enabled":true,"mode":"aperture-segments","segments":2,"start_angle_deg":270,"selection_mode":"hover"},"target_group":"group_2","cue_border":{"enabled":true,"mode":"target-group-color","target_group":"group_2","color":"#0066ff","width":4}},"correct_side":"right","rt_ms":234,"accuracy":false,"correctness":false,"response_side":"left","response_key":null,"response_angle_deg":-81.01692176546157,"response_angle_raw_deg":-171.0169217654616,"response_segment_index":0},{"frame_index":5,"event":"frame_end","t_ms":15069,"ended_reason":"deadline","rdm":{"canvas_width":600,"canvas_height":600,"background_color":"#404040","shape":"circle","diameter":350,"center_x":300,"center_y":300,"total_dots":150,"dot_size":4,"dot_color":"#ffffff","lifetime_frames":60,"coherence":0.5,"direction":0,"speed":5,"noise_type":"random_direction","fixation_duration":500,"stimulus_duration":1500,"response_deadline":2500,"inter_trial_interval":1200,"frame_rate":60,"duration":30,"update_interval":16,"aperture_shape":"circle","aperture_size":350,"type":"rdm-dot-groups","_generated_from_block":true,"_block_index":5,"group_1_direction":180,"group_2_direction":180,"group_1_color":"#ff0066","group_2_color":"#0066ff","group_1_percentage":46,"group_1_coherence":0.3498721458099304,"group_1_speed":7.6645682081836926,"group_2_coherence":0.7542893487370163,"group_2_speed":4.07806000225431,"group_2_percentage":54,"experiment_type":"continuous","cue_border_mode":"custom","cue_border_width":4,"cue_border_color":"#0066ff","response_target_group":2},"response":{"require_response":true,"response_device":"mouse","end_condition_on_response":false,"mouse_response":{"enabled":true,"mode":"aperture-segments","segments":2,"start_angle_deg":270,"selection_mode":"hover"},"target_group":"group_2","cue_border":{"enabled":true,"mode":"target-group-color","target_group":"group_2","color":"#0066ff","width":4}},"correct_side":"left","rt_ms":null,"accuracy":null,"correctness":null,"response_side":null,"response_key":null,"response_angle_deg":null,"response_angle_raw_deg":null,"response_segment_index":null},{"frame_index":6,"event":"response","t_ms":15720,"response_side":"right","response_key":null,"response_angle_deg":78.17851165939277,"response_angle_raw_deg":-11.821488340607257,"response_segment_index":0,"rt_ms":651,"correct_side":"right","accuracy":true,"correctness":true},{"frame_index":6,"event":"frame_end","t_ms":17585,"ended_reason":"deadline","rdm":{"canvas_width":600,"canvas_height":600,"background_color":"#404040","shape":"circle","diameter":350,"center_x":300,"center_y":300,"total_dots":150,"dot_size":4,"dot_color":"#ffffff","lifetime_frames":60,"coherence":0.5,"direction":0,"speed":5,"noise_type":"random_direction","fixation_duration":500,"stimulus_duration":1500,"response_deadline":2500,"inter_trial_interval":1200,"frame_rate":60,"duration":30,"update_interval":16,"aperture_shape":"circle","aperture_size":350,"type":"rdm-dot-groups","_generated_from_block":true,"_block_index":6,"group_1_direction":0,"group_2_direction":0,"group_1_color":"#ff0066","group_2_color":"#0066ff","group_1_percentage":56,"group_1_coherence":0.16949202895839266,"group_1_speed":8.657005515746722,"group_2_coherence":0.7905591075860292,"group_2_speed":5.20479983012019,"group_2_percentage":44,"experiment_type":"continuous","cue_border_mode":"custom","cue_border_width":4,"cue_border_color":"#0066ff","response_target_group":2},"response":{"require_response":true,"response_device":"mouse","end_condition_on_response":false,"mouse_response":{"enabled":true,"mode":"aperture-segments","segments":2,"start_angle_deg":270,"selection_mode":"hover"},"target_group":"group_2","cue_border":{"enabled":true,"mode":"target-group-color","target_group":"group_2","color":"#0066ff","width":4}},"correct_side":"right","rt_ms":651,"accuracy":true,"correctness":true,"response_side":"right","response_key":null,"response_angle_deg":78.17851165939277,"response_angle_raw_deg":-11.821488340607257,"response_segment_index":0},{"frame_index":7,"event":"response","t_ms":18260,"response_side":"left","response_key":null,"response_angle_deg":261.0169217654616,"response_angle_raw_deg":171.0169217654616,"response_segment_index":1,"rt_ms":674,"correct_side":"left","accuracy":true,"correctness":true},{"frame_index":7,"event":"frame_end","t_ms":20102,"ended_reason":"deadline","rdm":{"canvas_width":600,"canvas_height":600,"background_color":"#404040","shape":"circle","diameter":350,"center_x":300,"center_y":300,"total_dots":150,"dot_size":4,"dot_color":"#ffffff","lifetime_frames":60,"coherence":0.5,"direction":0,"speed":5,"noise_type":"random_direction","fixation_duration":500,"stimulus_duration":1500,"response_deadline":2500,"inter_trial_interval":1200,"frame_rate":60,"duration":30,"update_interval":16,"aperture_shape":"circle","aperture_size":350,"type":"rdm-dot-groups","_generated_from_block":true,"_block_index":7,"group_1_direction":0,"group_2_direction":180,"group_1_color":"#ff0066","group_2_color":"#0066ff","group_1_percentage":55,"group_1_coherence":0.4217675700920994,"group_1_speed":4.472053120251084,"group_2_coherence":0.5197012589096339,"group_2_speed":9.366281392807966,"group_2_percentage":45,"experiment_type":"continuous","cue_border_mode":"custom","cue_border_width":4,"cue_border_color":"#0066ff","response_target_group":2},"response":{"require_response":true,"response_device":"mouse","end_condition_on_response":false,"mouse_response":{"enabled":true,"mode":"aperture-segments","segments":2,"start_angle_deg":270,"selection_mode":"hover"},"target_group":"group_2","cue_border":{"enabled":true,"mode":"target-group-color","target_group":"group_2","color":"#0066ff","width":4}},"correct_side":"left","rt_ms":674,"accuracy":true,"correctness":true,"response_side":"left","response_key":null,"response_angle_deg":261.0169217654616,"response_angle_raw_deg":171.0169217654616,"response_segment_index":1},{"frame_index":8,"event":"response","t_ms":20860,"response_side":"right","response_key":null,"response_angle_deg":84.25939336104807,"response_angle_raw_deg":-5.740606638951911,"response_segment_index":0,"rt_ms":758,"correct_side":"right","accuracy":true,"correctness":true},{"frame_index":8,"event":"frame_end","t_ms":22602,"ended_reason":"deadline","rdm":{"canvas_width":600,"canvas_height":600,"background_color":"#404040","shape":"circle","diameter":350,"center_x":300,"center_y":300,"total_dots":150,"dot_size":4,"dot_color":"#ffffff","lifetime_frames":60,"coherence":0.5,"direction":0,"speed":5,"noise_type":"random_direction","fixation_duration":500,"stimulus_duration":1500,"response_deadline":2500,"inter_trial_interval":1200,"frame_rate":60,"duration":30,"update_interval":16,"aperture_shape":"circle","aperture_size":350,"type":"rdm-dot-groups","_generated_from_block":true,"_block_index":8,"group_1_direction":0,"group_2_direction":0,"group_1_color":"#ff0066","group_2_color":"#0066ff","group_1_percentage":50,"group_1_coherence":0.11825304022505662,"group_1_speed":7.047353453832318,"group_2_coherence":0.7923790803477266,"group_2_speed":4.2518643064274775,"group_2_percentage":50,"experiment_type":"continuous","cue_border_mode":"custom","cue_border_width":4,"cue_border_color":"#0066ff","response_target_group":2},"response":{"require_response":true,"response_device":"mouse","end_condition_on_response":false,"mouse_response":{"enabled":true,"mode":"aperture-segments","segments":2,"start_angle_deg":270,"selection_mode":"hover"},"target_group":"group_2","cue_border":{"enabled":true,"mode":"target-group-color","target_group":"group_2","color":"#0066ff","width":4}},"correct_side":"right","rt_ms":758,"accuracy":true,"correctness":true,"response_side":"right","response_key":null,"response_angle_deg":84.25939336104807,"response_angle_raw_deg":-5.740606638951911,"response_segment_index":0},{"frame_index":9,"event":"response","t_ms":23290,"response_side":"left","response_key":null,"response_angle_deg":-82.59406436540348,"response_angle_raw_deg":-172.59406436540348,"response_segment_index":0,"rt_ms":688,"correct_side":"left","accuracy":true,"correctness":true},{"frame_index":9,"event":"frame_end","t_ms":25119,"ended_reason":"deadline","rdm":{"canvas_width":600,"canvas_height":600,"background_color":"#404040","shape":"circle","diameter":350,"center_x":300,"center_y":300,"total_dots":150,"dot_size":4,"dot_color":"#ffffff","lifetime_frames":60,"coherence":0.5,"direction":0,"speed":5,"noise_type":"random_direction","fixation_duration":500,"stimulus_duration":1500,"response_deadline":2500,"inter_trial_interval":1200,"frame_rate":60,"duration":30,"update_interval":16,"aperture_shape":"circle","aperture_size":350,"type":"rdm-dot-groups","_generated_from_block":true,"_block_index":9,"group_1_direction":180,"group_2_direction":180,"group_1_color":"#ff0066","group_2_color":"#0066ff","group_1_percentage":53,"group_1_coherence":0.46237515577601174,"group_1_speed":9.868568369973966,"group_2_coherence":0.845221003977563,"group_2_speed":5.966590320619984,"group_2_percentage":47,"experiment_type":"continuous","cue_border_mode":"custom","cue_border_width":4,"cue_border_color":"#0066ff","response_target_group":2},"response":{"require_response":true,"response_device":"mouse","end_condition_on_response":false,"mouse_response":{"enabled":true,"mode":"aperture-segments","segments":2,"start_angle_deg":270,"selection_mode":"hover"},"target_group":"group_2","cue_border":{"enabled":true,"mode":"target-group-color","target_group":"group_2","color":"#0066ff","width":4}},"correct_side":"left","rt_ms":688,"accuracy":true,"correctness":true,"response_side":"left","response_key":null,"response_angle_deg":-82.59406436540348,"response_angle_raw_deg":-172.59406436540348,"response_segment_index":0}],"trial_type":"rdm-continuous","trial_index":3,"plugin_version":"1.0.0","time_elapsed":50414}]