[
  {
    "plugin_type": "instructions",
    "rt": 15323,
    "stimulus": "\n        <div class=\"psy-wrap\">\n          <div class=\"psy-stage\">\n            <div class=\"psy-text\">\n              SART (Sustained Attention to Response Task)\n\nPress SPACE for all digits except 3.\nDo NOT press for 3.\n\n(Testing DRT: press F when the red stimulus appears.)\n              \n            </div>\n          </div>\n        </div>\n      ",
    "response": " ",
    "trial_type": "html-keyboard-response",
    "trial_index": 0,
    "plugin_version": "2.1.0",
    "time_elapsed": 15327,
    "task_type": "sart",
    "experiment_type": "trial-based",
    "config_id": "TESTDRT-sart-drt-01"
  },
  {
    "plugin_type": "drt-start",
    "task_type": "sart",
    "rt": null,
    "stimulus": "",
    "response": null,
    "trial_type": "html-keyboard-response",
    "trial_index": 1,
    "plugin_version": "2.1.0",
    "time_elapsed": 15333,
    "experiment_type": "trial-based",
    "config_id": "TESTDRT-sart-drt-01"
  },
  {
    "plugin_type": "sart-trial",
    "task_type": "sart",
    "end_reason": "deadline",
    "digit": 6,
    "nogo_digit": 3,
    "is_nogo": false,
    "response_key": " ",
    "correct": true,
    "accuracy": true,
    "correctness": true,
    "rt_ms": 933,
    "trial_type": "sart",
    "trial_index": 2,
    "plugin_version": "1.0.0",
    "time_elapsed": 16490,
    "experiment_type": "trial-based",
    "config_id": "TESTDRT-sart-drt-01"
  },
  {
    "plugin_type": "sart-trial",
    "task_type": "sart",
    "end_reason": "deadline",
    "digit": 6,
    "nogo_digit": 3,
    "is_nogo": false,
    "response_key": " ",
    "correct": true,
    "accuracy": true,
    "correctness": true,
    "rt_ms": 407,
    "trial_type": "sart",
    "trial_index": 3,
    "plugin_version": "1.0.0",
    "time_elapsed": 17656,
    "experiment_type": "trial-based",
    "config_id": "TESTDRT-sart-drt-01"
  },
  {
    "plugin_type": "sart-trial",
    "task_type": "sart",
    "end_reason": "deadline",
    "digit": 8,
    "nogo_digit": 3,
    "is_nogo": false,
    "response_key": " ",
    "correct": true,
    "accuracy": true,
    "correctness": true,
    "rt_ms": 235,
    "trial_type": "sart",
    "trial_index": 4,
    "plugin_version": "1.0.0",
    "time_elapsed": 18821,
    "experiment_type": "trial-based",
    "config_id": "TESTDRT-sart-drt-01"
  },
  {
    "plugin_type": "sart-trial",
    "task_type": "sart",
    "end_reason": "deadline",
    "digit": 3,
    "nogo_digit": 3,
    "is_nogo": true,
    "response_key": " ",
    "correct": false,
    "accuracy": false,
    "correctness": false,
    "rt_ms": 202,
    "trial_type": "sart",
    "trial_index": 5,
    "plugin_version": "1.0.0",
    "time_elapsed": 19974,
    "experiment_type": "trial-based",
    "config_id": "TESTDRT-sart-drt-01"
  },
  {
    "plugin_type": "sart-trial",
    "task_type": "sart",
    "end_reason": "deadline",
    "digit": 8,
    "nogo_digit": 3,
    "is_nogo": false,
    "response_key": " ",
    "correct": true,
    "accuracy": true,
    "correctness": true,
    "rt_ms": 20,
    "trial_type": "sart",
    "trial_index": 6,
    "plugin_version": "1.0.0",
    "time_elapsed": 21128,
    "experiment_type": "trial-based",
    "config_id": "TESTDRT-sart-drt-01"
  },
  {
    "plugin_type": "sart-trial",
    "task_type": "sart",
    "end_reason": "deadline",
    "digit": 1,
    "nogo_digit": 3,
    "is_nogo": false,
    "response_key": "f",
    "correct": false,
    "accuracy": false,
    "correctness": false,
    "rt_ms": 274,
    "trial_type": "sart",
    "trial_index": 7,
    "plugin_version": "1.0.0",
    "time_elapsed": 22288,
    "experiment_type": "trial-based",
    "config_id": "TESTDRT-sart-drt-01"
  },
  {
    "plugin_type": "sart-trial",
    "task_type": "sart",
    "end_reason": "deadline",
    "digit": 9,
    "nogo_digit": 3,
    "is_nogo": false,
    "response_key": " ",
    "correct": true,
    "accuracy": true,
    "correctness": true,
    "rt_ms": 118,
    "trial_type": "sart",
    "trial_index": 8,
    "plugin_version": "1.0.0",
    "time_elapsed": 23454,
    "experiment_type": "trial-based",
    "config_id": "TESTDRT-sart-drt-01"
  },
  {
    "plugin_type": "sart-trial",
    "task_type": "sart",
    "end_reason": "deadline",
    "digit": 1,
    "nogo_digit": 3,
    "is_nogo": false,
    "response_key": " ",
    "correct": true,
    "accuracy": true,
    "correctness": true,
    "rt_ms": 33,
    "trial_type": "sart",
    "trial_index": 9,
    "plugin_version": "1.0.0",
    "time_elapsed": 24608,
    "experiment_type": "trial-based",
    "config_id": "TESTDRT-sart-drt-01"
  },
  {
    "plugin_type": "sart-trial",
    "task_type": "sart",
    "end_reason": "deadline",
    "digit": 7,
    "nogo_digit": 3,
    "is_nogo": false,
    "response_key": " ",
    "correct": true,
    "accuracy": true,
    "correctness": true,
    "rt_ms": 340,
    "trial_type": "sart",
    "trial_index": 10,
    "plugin_version": "1.0.0",
    "time_elapsed": 25773,
    "experiment_type": "trial-based",
    "config_id": "TESTDRT-sart-drt-01"
  },
  {
    "plugin_type": "sart-trial",
    "task_type": "sart",
    "end_reason": "deadline",
    "digit": 1,
    "nogo_digit": 3,
    "is_nogo": false,
    "response_key": " ",
    "correct": true,
    "accuracy": true,
    "correctness": true,
    "rt_ms": 232,
    "trial_type": "sart",
    "trial_index": 11,
    "plugin_version": "1.0.0",
    "time_elapsed": 26933,
    "experiment_type": "trial-based",
    "config_id": "TESTDRT-sart-drt-01"
  },
  {
    "plugin_type": "sart-trial",
    "task_type": "sart",
    "end_reason": "deadline",
    "digit": 7,
    "nogo_digit": 3,
    "is_nogo": false,
    "response_key": " ",
    "correct": true,
    "accuracy": true,
    "correctness": true,
    "rt_ms": 294,
    "trial_type": "sart",
    "trial_index": 12,
    "plugin_version": "1.0.0",
    "time_elapsed": 28095,
    "experiment_type": "trial-based",
    "config_id": "TESTDRT-sart-drt-01"
  },
  {
    "plugin_type": "sart-trial",
    "task_type": "sart",
    "end_reason": "deadline",
    "digit": 3,
    "nogo_digit": 3,
    "is_nogo": true,
    "response_key": " ",
    "correct": false,
    "accuracy": false,
    "correctness": false,
    "rt_ms": 349,
    "trial_type": "sart",
    "trial_index": 13,
    "plugin_version": "1.0.0",
    "time_elapsed": 29256,
    "experiment_type": "trial-based",
    "config_id": "TESTDRT-sart-drt-01"
  },
  {
    "plugin_type": "sart-trial",
    "task_type": "sart",
    "end_reason": "deadline",
    "digit": 3,
    "nogo_digit": 3,
    "is_nogo": true,
    "response_key": " ",
    "correct": false,
    "accuracy": false,
    "correctness": false,
    "rt_ms": 398,
    "trial_type": "sart",
    "trial_index": 14,
    "plugin_version": "1.0.0",
    "time_elapsed": 30421,
    "experiment_type": "trial-based",
    "config_id": "TESTDRT-sart-drt-01"
  },
  {
    "plugin_type": "sart-trial",
    "task_type": "sart",
    "end_reason": "deadline",
    "digit": 3,
    "nogo_digit": 3,
    "is_nogo": true,
    "response_key": " ",
    "correct": false,
    "accuracy": false,
    "correctness": false,
    "rt_ms": 296,
    "trial_type": "sart",
    "trial_index": 15,
    "plugin_version": "1.0.0",
    "time_elapsed": 31574,
    "experiment_type": "trial-based",
    "config_id": "TESTDRT-sart-drt-01"
  },
  {
    "plugin_type": "sart-trial",
    "task_type": "sart",
    "end_reason": "deadline",
    "digit": 1,
    "nogo_digit": 3,
    "is_nogo": false,
    "response_key": " ",
    "correct": true,
    "accuracy": true,
    "correctness": true,
    "rt_ms": 348,
    "trial_type": "sart",
    "trial_index": 16,
    "plugin_version": "1.0.0",
    "time_elapsed": 32726,
    "experiment_type": "trial-based",
    "config_id": "TESTDRT-sart-drt-01"
  },
  {
    "plugin_type": "sart-trial",
    "task_type": "sart",
    "end_reason": "deadline",
    "digit": 8,
    "nogo_digit": 3,
    "is_nogo": false,
    "response_key": " ",
    "correct": true,
    "accuracy": true,
    "correctness": true,
    "rt_ms": 321,
    "trial_type": "sart",
    "trial_index": 17,
    "plugin_version": "1.0.0",
    "time_elapsed": 33877,
    "experiment_type": "trial-based",
    "config_id": "TESTDRT-sart-drt-01"
  },
  {
    "plugin_type": "sart-trial",
    "task_type": "sart",
    "end_reason": "deadline",
    "digit": 1,
    "nogo_digit": 3,
    "is_nogo": false,
    "response_key": "f",
    "correct": false,
    "accuracy": false,
    "correctness": false,
    "rt_ms": 299,
    "trial_type": "sart",
    "trial_index": 18,
    "plugin_version": "1.0.0",
    "time_elapsed": 35029,
    "experiment_type": "trial-based",
    "config_id": "TESTDRT-sart-drt-01"
  },
  {
    "plugin_type": "sart-trial",
    "task_type": "sart",
    "end_reason": "deadline",
    "digit": 3,
    "nogo_digit": 3,
    "is_nogo": true,
    "response_key": " ",
    "correct": false,
    "accuracy": false,
    "correctness": false,
    "rt_ms": 393,
    "trial_type": "sart",
    "trial_index": 19,
    "plugin_version": "1.0.0",
    "time_elapsed": 36180,
    "experiment_type": "trial-based",
    "config_id": "TESTDRT-sart-drt-01"
  },
  {
    "plugin_type": "drt-stop",
    "task_type": "sart",
    "rt": null,
    "stimulus": "",
    "response": null,
    "trial_type": "html-keyboard-response",
    "trial_index": 20,
    "plugin_version": "2.1.0",
    "time_elapsed": 36186,
    "experiment_type": "trial-based",
    "config_id": "TESTDRT-sart-drt-01"
  },
  {
    "plugin_type": "drt",
    "task_type": "drt",
    "drt_event": "start",
    "drt_segment_id": "drt_1",
    "drt_segment_label": "sart-main",
    "drt_settings": {
      "segment_label": "sart-main",
      "response_key": "f",
      "min_iti_ms": 3000,
      "max_iti_ms": 5000,
      "stimulus_duration_ms": 1000,
      "min_rt_ms": 100,
      "max_rt_ms": 2000,
      "stimulus_type": "square",
      "stimulus_color": "#ff3b3b",
      "location": "top-right",
      "size_px": 18
    },
    "experiment_type": "trial-based",
    "config_id": "TESTDRT-sart-drt-01"
  },
  {
    "plugin_type": "drt",
    "task_type": "drt",
    "drt_segment_id": "drt_1",
    "drt_segment_label": "sart-main",
    "drt_stimulus_index": 1,
    "drt_onset_ms": 20980.600000023842,
    "drt_response_key": "f",
    "drt_key": "f",
    "drt_responded": true,
    "drt_rt_ms": 589.6999999284744,
    "drt_correct": true,
    "experiment_type": "trial-based",
    "config_id": "TESTDRT-sart-drt-01"
  },
  {
    "plugin_type": "drt",
    "task_type": "drt",
    "drt_segment_id": "drt_1",
    "drt_segment_label": "sart-main",
    "drt_stimulus_index": 2,
    "drt_onset_ms": 25528.299999952316,
    "drt_response_key": "f",
    "drt_key": "f",
    "drt_responded": true,
    "drt_rt_ms": 440.7000000476837,
    "drt_correct": true,
    "experiment_type": "trial-based",
    "config_id": "TESTDRT-sart-drt-01"
  },
  {
    "plugin_type": "drt",
    "task_type": "drt",
    "drt_segment_id": "drt_1",
    "drt_segment_label": "sart-main",
    "drt_stimulus_index": 3,
    "drt_onset_ms": 29796.700000047684,
    "drt_response_key": "f",
    "drt_key": "f",
    "drt_responded": true,
    "drt_rt_ms": 344.59999990463257,
    "drt_correct": true,
    "experiment_type": "trial-based",
    "config_id": "TESTDRT-sart-drt-01"
  },
  {
    "plugin_type": "drt",
    "task_type": "drt",
    "drt_segment_id": "drt_1",
    "drt_segment_label": "sart-main",
    "drt_stimulus_index": 4,
    "drt_onset_ms": 34933.10000002384,
    "drt_response_key": "f",
    "drt_key": "f",
    "drt_responded": true,
    "drt_rt_ms": 650.8999999761581,
    "drt_correct": true,
    "experiment_type": "trial-based",
    "config_id": "TESTDRT-sart-drt-01"
  },
  {
    "plugin_type": "drt",
    "task_type": "drt",
    "drt_event": "stop",
    "drt_segment_id": "drt_1",
    "drt_segment_label": "sart-main",
    "experiment_type": "trial-based",
    "config_id": "TESTDRT-sart-drt-01"
  }
]