[
  {
    "plugin_type": "html-keyboard-response",
    "rt": 769,
    "stimulus": "\n        <div class=\"psy-wrap\">\n          <div class=\"psy-stage\">\n            <div class=\"psy-text\">\n              You will see a scrolling <b>traffic spikes</b> monitor.</p>\n<p>When <b>Reject?</b> flashes, respond to the <b>center spike</b> directly underneath that question, ignoring surrounding spikes.</p>\n<p>Press <b>{{REJECT_KEY}}</b> to reject and <b>{{ALLOW_KEY}}</b> to allow.</p>\n<p><i>Press any key to begin.</i></p>\n              \n            </div>\n          </div>\n        </div>\n      ",
    "response": " ",
    "trial_type": "html-keyboard-response",
    "trial_index": 0,
    "plugin_version": "2.1.0",
    "time_elapsed": 770,
    "task_type": "soc-dashboard",
    "experiment_type": "continuous",
    "config_id": "FLANKER-soc-dashboard-01"
  },
  {
    "plugin_type": "soc-dashboard",
    "task_type": "soc-dashboard",
    "original_type": "soc-subtask-flanker-like",
    "ended_reason": "timeout",
    "active_app": "tasks",
    "events": [
      {
        "t_ms": 2,
        "type": "key",
        "key": " "
      },
      {
        "t_ms": 1328,
        "type": "mousedown",
        "x": 988,
        "y": 539
      },
      {
        "t_ms": 1440,
        "type": "mouseup",
        "x": 988,
        "y": 539
      },
      {
        "t_ms": 1441,
        "type": "click",
        "x": 988,
        "y": 539
      },
      {
        "t_ms": 1442,
        "type": "subtask_start",
        "subtask_index": 0,
        "subtask_title": "Flanker-like",
        "subtask_type": "flanker-like"
      },
      {
        "t_ms": 1442,
        "t_subtask_ms": 0,
        "type": "flanker_subtask_start",
        "subtask_index": 0,
        "subtask_title": "Flanker-like",
        "reject_rule": "high_only",
        "allow_key": "f",
        "reject_key": "j"
      },
      {
        "t_ms": 2244,
        "t_subtask_ms": 802,
        "type": "flanker_present",
        "subtask_index": 0,
        "subtask_title": "Flanker-like",
        "stimulus_id": "fl_0_1770748125876_0",
        "trial_index": 1,
        "prompt_t_ms": 2244,
        "prompt_t_subtask_ms": 802,
        "deadline_t_ms": 3144,
        "deadline_t_subtask_ms": 1702,
        "center_level": 2,
        "flanker_level": 2,
        "congruent": true,
        "reject_rule": "high_only",
        "should_reject": true
      },
      {
        "t_ms": 2344,
        "type": "key",
        "key": "Ğ°"
      },
      {
        "t_ms": 3156,
        "t_subtask_ms": 1714,
        "type": "flanker_no_response",
        "subtask_index": 0,
        "subtask_title": "Flanker-like",
        "stimulus_id": "fl_0_1770748125876_0",
        "trial_index": 1,
        "prompt_t_ms": 2244,
        "prompt_t_subtask_ms": 802,
        "deadline_t_ms": 3144,
        "deadline_t_subtask_ms": 1702,
        "center_level": 2,
        "flanker_level": 2,
        "congruent": true,
        "reject_rule": "high_only",
        "should_reject": true
      },
      {
        "t_ms": 4512,
        "type": "key",
        "key": "Meta"
      },
      {
        "t_ms": 4877,
        "type": "key",
        "key": "Meta"
      },
      {
        "t_ms": 5181,
        "type": "key",
        "key": "Meta"
      },
      {
        "t_ms": 5728,
        "type": "key",
        "key": "Meta"
      },
      {
        "t_ms": 9716,
        "t_subtask_ms": 8274,
        "type": "flanker_present",
        "subtask_index": 0,
        "subtask_title": "Flanker-like",
        "stimulus_id": "fl_0_1770748127029_1",
        "trial_index": 2,
        "prompt_t_ms": 9716,
        "prompt_t_subtask_ms": 8274,
        "deadline_t_ms": 10616,
        "deadline_t_subtask_ms": 9174,
        "center_level": 1,
        "flanker_level": 0,
        "congruent": false,
        "reject_rule": "high_only",
        "should_reject": false
      },
      {
        "t_ms": 10804,
        "type": "key",
        "key": "f"
      },
      {
        "t_ms": 10868,
        "t_subtask_ms": 9426,
        "type": "flanker_present",
        "subtask_index": 0,
        "subtask_title": "Flanker-like",
        "stimulus_id": "fl_0_1770748128180_2",
        "trial_index": 3,
        "prompt_t_ms": 10867,
        "prompt_t_subtask_ms": 9426,
        "deadline_t_ms": 11767,
        "deadline_t_subtask_ms": 10326,
        "center_level": 0,
        "flanker_level": 0,
        "congruent": true,
        "reject_rule": "high_only",
        "should_reject": false
      },
      {
        "t_ms": 11780,
        "t_subtask_ms": 10338,
        "type": "flanker_no_response",
        "subtask_index": 0,
        "subtask_title": "Flanker-like",
        "stimulus_id": "fl_0_1770748128180_2",
        "trial_index": 3,
        "prompt_t_ms": 10867,
        "prompt_t_subtask_ms": 9426,
        "deadline_t_ms": 11767,
        "deadline_t_subtask_ms": 10326,
        "center_level": 0,
        "flanker_level": 0,
        "congruent": true,
        "reject_rule": "high_only",
        "should_reject": false
      },
      {
        "t_ms": 12020,
        "t_subtask_ms": 10578,
        "type": "flanker_present",
        "subtask_index": 0,
        "subtask_title": "Flanker-like",
        "stimulus_id": "fl_0_1770748129333_3",
        "trial_index": 4,
        "prompt_t_ms": 12019,
        "prompt_t_subtask_ms": 10578,
        "deadline_t_ms": 12919,
        "deadline_t_subtask_ms": 11478,
        "center_level": 1,
        "flanker_level": 2,
        "congruent": false,
        "reject_rule": "high_only",
        "should_reject": false
      },
      {
        "t_ms": 12115,
        "type": "key",
        "key": "j"
      },
      {
        "t_ms": 13122,
        "t_subtask_ms": 11681,
        "type": "flanker_late_response",
        "subtask_index": 0,
        "subtask_title": "Flanker-like",
        "stimulus_id": "fl_0_1770748128180_2",
        "trial_index": 3,
        "response": "reject",
        "response_key": "j",
        "correct": false,
        "accuracy": 0,
        "rt_ms": 2255,
        "lateness_ms": 1355,
        "prompt_t_ms": 10867,
        "prompt_t_subtask_ms": 9426,
        "response_t_ms": 13122,
        "response_t_subtask_ms": 11681,
        "deadline_t_ms": 11767,
        "deadline_t_subtask_ms": 10326,
        "center_level": 0,
        "flanker_level": 0,
        "congruent": true,
        "reject_rule": "high_only",
        "should_reject": false,
        "closed_reason": "no_response_expire"
      },
      {
        "t_ms": 13171,
        "t_subtask_ms": 11729,
        "type": "flanker_present",
        "subtask_index": 0,
        "subtask_title": "Flanker-like",
        "stimulus_id": "fl_0_1770748130485_4",
        "trial_index": 5,
        "prompt_t_ms": 13171,
        "prompt_t_subtask_ms": 11729,
        "deadline_t_ms": 14071,
        "deadline_t_subtask_ms": 12629,
        "center_level": 2,
        "flanker_level": 2,
        "congruent": true,
        "reject_rule": "high_only",
        "should_reject": true
      },
      {
        "t_ms": 14085,
        "t_subtask_ms": 12644,
        "type": "flanker_no_response",
        "subtask_index": 0,
        "subtask_title": "Flanker-like",
        "stimulus_id": "fl_0_1770748130485_4",
        "trial_index": 5,
        "prompt_t_ms": 13171,
        "prompt_t_subtask_ms": 11729,
        "deadline_t_ms": 14071,
        "deadline_t_subtask_ms": 12629,
        "center_level": 2,
        "flanker_level": 2,
        "congruent": true,
        "reject_rule": "high_only",
        "should_reject": true
      },
      {
        "t_ms": 14323,
        "t_subtask_ms": 12882,
        "type": "flanker_present",
        "subtask_index": 0,
        "subtask_title": "Flanker-like",
        "stimulus_id": "fl_0_1770748131621_5",
        "trial_index": 6,
        "prompt_t_ms": 14323,
        "prompt_t_subtask_ms": 12882,
        "deadline_t_ms": 15223,
        "deadline_t_subtask_ms": 13782,
        "center_level": 2,
        "flanker_level": 0,
        "congruent": false,
        "reject_rule": "high_only",
        "should_reject": true
      },
      {
        "t_ms": 15380,
        "t_subtask_ms": 13939,
        "type": "flanker_late_response",
        "subtask_index": 0,
        "subtask_title": "Flanker-like",
        "stimulus_id": "fl_0_1770748130485_4",
        "trial_index": 5,
        "response": "allow",
        "response_key": "f",
        "correct": false,
        "accuracy": 0,
        "rt_ms": 2209,
        "lateness_ms": 1309,
        "prompt_t_ms": 13171,
        "prompt_t_subtask_ms": 11729,
        "response_t_ms": 15380,
        "response_t_subtask_ms": 13939,
        "deadline_t_ms": 14071,
        "deadline_t_subtask_ms": 12629,
        "center_level": 2,
        "flanker_level": 2,
        "congruent": true,
        "reject_rule": "high_only",
        "should_reject": true,
        "closed_reason": "no_response_expire"
      },
      {
        "t_ms": 15475,
        "t_subtask_ms": 14034,
        "type": "flanker_present",
        "subtask_index": 0,
        "subtask_title": "Flanker-like",
        "stimulus_id": "fl_0_1770748132773_6",
        "trial_index": 7,
        "prompt_t_ms": 15475,
        "prompt_t_subtask_ms": 14034,
        "deadline_t_ms": 16375,
        "deadline_t_subtask_ms": 14934,
        "center_level": 0,
        "flanker_level": 2,
        "congruent": false,
        "reject_rule": "high_only",
        "should_reject": false
      },
      {
        "t_ms": 16387,
        "t_subtask_ms": 14946,
        "type": "flanker_no_response",
        "subtask_index": 0,
        "subtask_title": "Flanker-like",
        "stimulus_id": "fl_0_1770748132773_6",
        "trial_index": 7,
        "prompt_t_ms": 15475,
        "prompt_t_subtask_ms": 14034,
        "deadline_t_ms": 16375,
        "deadline_t_subtask_ms": 14934,
        "center_level": 0,
        "flanker_level": 2,
        "congruent": false,
        "reject_rule": "high_only",
        "should_reject": false
      },
      {
        "t_ms": 16628,
        "t_subtask_ms": 15186,
        "type": "flanker_present",
        "subtask_index": 0,
        "subtask_title": "Flanker-like",
        "stimulus_id": "fl_0_1770748133924_7",
        "trial_index": 8,
        "prompt_t_ms": 16627,
        "prompt_t_subtask_ms": 15186,
        "deadline_t_ms": 17527,
        "deadline_t_subtask_ms": 16086,
        "center_level": 1,
        "flanker_level": 0,
        "congruent": false,
        "reject_rule": "high_only",
        "should_reject": false
      },
      {
        "t_ms": 17796,
        "t_subtask_ms": 16354,
        "type": "flanker_present",
        "subtask_index": 0,
        "subtask_title": "Flanker-like",
        "stimulus_id": "fl_0_1770748135076_8",
        "trial_index": 9,
        "prompt_t_ms": 17796,
        "prompt_t_subtask_ms": 16354,
        "deadline_t_ms": 18696,
        "deadline_t_subtask_ms": 17254,
        "center_level": 2,
        "flanker_level": 0,
        "congruent": false,
        "reject_rule": "high_only",
        "should_reject": true
      },
      {
        "t_ms": 18907,
        "type": "key",
        "key": "f"
      },
      {
        "t_ms": 18947,
        "t_subtask_ms": 17506,
        "type": "flanker_present",
        "subtask_index": 0,
        "subtask_title": "Flanker-like",
        "stimulus_id": "fl_0_1770748136229_9",
        "trial_index": 10,
        "prompt_t_ms": 18947,
        "prompt_t_subtask_ms": 17506,
        "deadline_t_ms": 19847,
        "deadline_t_subtask_ms": 18406,
        "center_level": 1,
        "flanker_level": 1,
        "congruent": true,
        "reject_rule": "high_only",
        "should_reject": false
      },
      {
        "t_ms": 19860,
        "t_subtask_ms": 18418,
        "type": "flanker_no_response",
        "subtask_index": 0,
        "subtask_title": "Flanker-like",
        "stimulus_id": "fl_0_1770748136229_9",
        "trial_index": 10,
        "prompt_t_ms": 18947,
        "prompt_t_subtask_ms": 17506,
        "deadline_t_ms": 19847,
        "deadline_t_subtask_ms": 18406,
        "center_level": 1,
        "flanker_level": 1,
        "congruent": true,
        "reject_rule": "high_only",
        "should_reject": false
      },
      {
        "t_ms": 20037,
        "t_subtask_ms": 18595,
        "type": "flanker_late_response",
        "subtask_index": 0,
        "subtask_title": "Flanker-like",
        "stimulus_id": "fl_0_1770748136229_9",
        "trial_index": 10,
        "response": "allow",
        "response_key": "f",
        "correct": true,
        "accuracy": 1,
        "rt_ms": 1090,
        "lateness_ms": 190,
        "prompt_t_ms": 18947,
        "prompt_t_subtask_ms": 17506,
        "response_t_ms": 20037,
        "response_t_subtask_ms": 18595,
        "deadline_t_ms": 19847,
        "deadline_t_subtask_ms": 18406,
        "center_level": 1,
        "flanker_level": 1,
        "congruent": true,
        "reject_rule": "high_only",
        "should_reject": false,
        "closed_reason": "no_response_expire"
      },
      {
        "t_ms": 20099,
        "t_subtask_ms": 18658,
        "type": "flanker_present",
        "subtask_index": 0,
        "subtask_title": "Flanker-like",
        "stimulus_id": "fl_0_1770748137380_10",
        "trial_index": 11,
        "prompt_t_ms": 20099,
        "prompt_t_subtask_ms": 18657,
        "deadline_t_ms": 20999,
        "deadline_t_subtask_ms": 19557,
        "center_level": 1,
        "flanker_level": 2,
        "congruent": false,
        "reject_rule": "high_only",
        "should_reject": false
      },
      {
        "t_ms": 21012,
        "t_subtask_ms": 19571,
        "type": "flanker_no_response",
        "subtask_index": 0,
        "subtask_title": "Flanker-like",
        "stimulus_id": "fl_0_1770748137380_10",
        "trial_index": 11,
        "prompt_t_ms": 20099,
        "prompt_t_subtask_ms": 18657,
        "deadline_t_ms": 20999,
        "deadline_t_subtask_ms": 19557,
        "center_level": 1,
        "flanker_level": 2,
        "congruent": false,
        "reject_rule": "high_only",
        "should_reject": false
      },
      {
        "t_ms": 21180,
        "t_subtask_ms": 19739,
        "type": "flanker_late_response",
        "subtask_index": 0,
        "subtask_title": "Flanker-like",
        "stimulus_id": "fl_0_1770748137380_10",
        "trial_index": 11,
        "response": "allow",
        "response_key": "f",
        "correct": true,
        "accuracy": 1,
        "rt_ms": 1081,
        "lateness_ms": 181,
        "prompt_t_ms": 20099,
        "prompt_t_subtask_ms": 18657,
        "response_t_ms": 21180,
        "response_t_subtask_ms": 19739,
        "deadline_t_ms": 20999,
        "deadline_t_subtask_ms": 19557,
        "center_level": 1,
        "flanker_level": 2,
        "congruent": false,
        "reject_rule": "high_only",
        "should_reject": false,
        "closed_reason": "no_response_expire"
      },
      {
        "t_ms": 21252,
        "t_subtask_ms": 19810,
        "type": "flanker_present",
        "subtask_index": 0,
        "subtask_title": "Flanker-like",
        "stimulus_id": "fl_0_1770748138519_11",
        "trial_index": 12,
        "prompt_t_ms": 21252,
        "prompt_t_subtask_ms": 19810,
        "deadline_t_ms": 22152,
        "deadline_t_subtask_ms": 20710,
        "center_level": 0,
        "flanker_level": 0,
        "congruent": true,
        "reject_rule": "high_only",
        "should_reject": false
      },
      {
        "t_ms": 22164,
        "t_subtask_ms": 20723,
        "type": "flanker_no_response",
        "subtask_index": 0,
        "subtask_title": "Flanker-like",
        "stimulus_id": "fl_0_1770748138519_11",
        "trial_index": 12,
        "prompt_t_ms": 21252,
        "prompt_t_subtask_ms": 19810,
        "deadline_t_ms": 22152,
        "deadline_t_subtask_ms": 20710,
        "center_level": 0,
        "flanker_level": 0,
        "congruent": true,
        "reject_rule": "high_only",
        "should_reject": false
      },
      {
        "t_ms": 22356,
        "t_subtask_ms": 20915,
        "type": "flanker_late_response",
        "subtask_index": 0,
        "subtask_title": "Flanker-like",
        "stimulus_id": "fl_0_1770748138519_11",
        "trial_index": 12,
        "response": "allow",
        "response_key": "f",
        "correct": true,
        "accuracy": 1,
        "rt_ms": 1105,
        "lateness_ms": 205,
        "prompt_t_ms": 21252,
        "prompt_t_subtask_ms": 19810,
        "response_t_ms": 22356,
        "response_t_subtask_ms": 20915,
        "deadline_t_ms": 22152,
        "deadline_t_subtask_ms": 20710,
        "center_level": 0,
        "flanker_level": 0,
        "congruent": true,
        "reject_rule": "high_only",
        "should_reject": false,
        "closed_reason": "no_response_expire"
      },
      {
        "t_ms": 22403,
        "t_subtask_ms": 20962,
        "type": "flanker_present",
        "subtask_index": 0,
        "subtask_title": "Flanker-like",
        "stimulus_id": "fl_0_1770748139669_12",
        "trial_index": 13,
        "prompt_t_ms": 22403,
        "prompt_t_subtask_ms": 20961,
        "deadline_t_ms": 23303,
        "deadline_t_subtask_ms": 21861,
        "center_level": 0,
        "flanker_level": 2,
        "congruent": false,
        "reject_rule": "high_only",
        "should_reject": false
      },
      {
        "t_ms": 23316,
        "t_subtask_ms": 21874,
        "type": "flanker_no_response",
        "subtask_index": 0,
        "subtask_title": "Flanker-like",
        "stimulus_id": "fl_0_1770748139669_12",
        "trial_index": 13,
        "prompt_t_ms": 22403,
        "prompt_t_subtask_ms": 20961,
        "deadline_t_ms": 23303,
        "deadline_t_subtask_ms": 21861,
        "center_level": 0,
        "flanker_level": 2,
        "congruent": false,
        "reject_rule": "high_only",
        "should_reject": false
      },
      {
        "t_ms": 23512,
        "t_subtask_ms": 22071,
        "type": "flanker_late_response",
        "subtask_index": 0,
        "subtask_title": "Flanker-like",
        "stimulus_id": "fl_0_1770748139669_12",
        "trial_index": 13,
        "response": "allow",
        "response_key": "f",
        "correct": true,
        "accuracy": 1,
        "rt_ms": 1109,
        "lateness_ms": 209,
        "prompt_t_ms": 22403,
        "prompt_t_subtask_ms": 20961,
        "response_t_ms": 23512,
        "response_t_subtask_ms": 22071,
        "deadline_t_ms": 23303,
        "deadline_t_subtask_ms": 21861,
        "center_level": 0,
        "flanker_level": 2,
        "congruent": false,
        "reject_rule": "high_only",
        "should_reject": false,
        "closed_reason": "no_response_expire"
      },
      {
        "t_ms": 23555,
        "t_subtask_ms": 22113,
        "type": "flanker_present",
        "subtask_index": 0,
        "subtask_title": "Flanker-like",
        "stimulus_id": "fl_0_1770748140821_13",
        "trial_index": 14,
        "prompt_t_ms": 23555,
        "prompt_t_subtask_ms": 22113,
        "deadline_t_ms": 24455,
        "deadline_t_subtask_ms": 23013,
        "center_level": 1,
        "flanker_level": 0,
        "congruent": false,
        "reject_rule": "high_only",
        "should_reject": false
      },
      {
        "t_ms": 24468,
        "t_subtask_ms": 23026,
        "type": "flanker_no_response",
        "subtask_index": 0,
        "subtask_title": "Flanker-like",
        "stimulus_id": "fl_0_1770748140821_13",
        "trial_index": 14,
        "prompt_t_ms": 23555,
        "prompt_t_subtask_ms": 22113,
        "deadline_t_ms": 24455,
        "deadline_t_subtask_ms": 23013,
        "center_level": 1,
        "flanker_level": 0,
        "congruent": false,
        "reject_rule": "high_only",
        "should_reject": false
      },
      {
        "t_ms": 24651,
        "t_subtask_ms": 23209,
        "type": "flanker_late_response",
        "subtask_index": 0,
        "subtask_title": "Flanker-like",
        "stimulus_id": "fl_0_1770748140821_13",
        "trial_index": 14,
        "response": "allow",
        "response_key": "f",
        "correct": true,
        "accuracy": 1,
        "rt_ms": 1096,
        "lateness_ms": 196,
        "prompt_t_ms": 23555,
        "prompt_t_subtask_ms": 22113,
        "response_t_ms": 24651,
        "response_t_subtask_ms": 23209,
        "deadline_t_ms": 24455,
        "deadline_t_subtask_ms": 23013,
        "center_level": 1,
        "flanker_level": 0,
        "congruent": false,
        "reject_rule": "high_only",
        "should_reject": false,
        "closed_reason": "no_response_expire"
      },
      {
        "t_ms": 24708,
        "t_subtask_ms": 23266,
        "type": "flanker_present",
        "subtask_index": 0,
        "subtask_title": "Flanker-like",
        "stimulus_id": "fl_0_1770748141973_14",
        "trial_index": 15,
        "prompt_t_ms": 24708,
        "prompt_t_subtask_ms": 23266,
        "deadline_t_ms": 25608,
        "deadline_t_subtask_ms": 24166,
        "center_level": 0,
        "flanker_level": 2,
        "congruent": false,
        "reject_rule": "high_only",
        "should_reject": false
      },
      {
        "t_ms": 25619,
        "t_subtask_ms": 24178,
        "type": "flanker_no_response",
        "subtask_index": 0,
        "subtask_title": "Flanker-like",
        "stimulus_id": "fl_0_1770748141973_14",
        "trial_index": 15,
        "prompt_t_ms": 24708,
        "prompt_t_subtask_ms": 23266,
        "deadline_t_ms": 25608,
        "deadline_t_subtask_ms": 24166,
        "center_level": 0,
        "flanker_level": 2,
        "congruent": false,
        "reject_rule": "high_only",
        "should_reject": false
      },
      {
        "t_ms": 25776,
        "t_subtask_ms": 24334,
        "type": "flanker_late_response",
        "subtask_index": 0,
        "subtask_title": "Flanker-like",
        "stimulus_id": "fl_0_1770748141973_14",
        "trial_index": 15,
        "response": "allow",
        "response_key": "f",
        "correct": true,
        "accuracy": 1,
        "rt_ms": 1068,
        "lateness_ms": 168,
        "prompt_t_ms": 24708,
        "prompt_t_subtask_ms": 23266,
        "response_t_ms": 25776,
        "response_t_subtask_ms": 24334,
        "deadline_t_ms": 25608,
        "deadline_t_subtask_ms": 24166,
        "center_level": 0,
        "flanker_level": 2,
        "congruent": false,
        "reject_rule": "high_only",
        "should_reject": false,
        "closed_reason": "no_response_expire"
      },
      {
        "t_ms": 25860,
        "t_subtask_ms": 24418,
        "type": "flanker_present",
        "subtask_index": 0,
        "subtask_title": "Flanker-like",
        "stimulus_id": "fl_0_1770748143124_15",
        "trial_index": 16,
        "prompt_t_ms": 25860,
        "prompt_t_subtask_ms": 24418,
        "deadline_t_ms": 26760,
        "deadline_t_subtask_ms": 25318,
        "center_level": 0,
        "flanker_level": 0,
        "congruent": true,
        "reject_rule": "high_only",
        "should_reject": false
      },
      {
        "t_ms": 26772,
        "t_subtask_ms": 25330,
        "type": "flanker_no_response",
        "subtask_index": 0,
        "subtask_title": "Flanker-like",
        "stimulus_id": "fl_0_1770748143124_15",
        "trial_index": 16,
        "prompt_t_ms": 25860,
        "prompt_t_subtask_ms": 24418,
        "deadline_t_ms": 26760,
        "deadline_t_subtask_ms": 25318,
        "center_level": 0,
        "flanker_level": 0,
        "congruent": true,
        "reject_rule": "high_only",
        "should_reject": false
      },
      {
        "t_ms": 27012,
        "t_subtask_ms": 25570,
        "type": "flanker_present",
        "subtask_index": 0,
        "subtask_title": "Flanker-like",
        "stimulus_id": "fl_0_1770748144260_16",
        "trial_index": 17,
        "prompt_t_ms": 27012,
        "prompt_t_subtask_ms": 25570,
        "deadline_t_ms": 27912,
        "deadline_t_subtask_ms": 26470,
        "center_level": 0,
        "flanker_level": 0,
        "congruent": true,
        "reject_rule": "high_only",
        "should_reject": false
      },
      {
        "t_ms": 28004,
        "t_subtask_ms": 26563,
        "type": "flanker_late_response",
        "subtask_index": 0,
        "subtask_title": "Flanker-like",
        "stimulus_id": "fl_0_1770748143124_15",
        "trial_index": 16,
        "response": "reject",
        "response_key": "j",
        "correct": false,
        "accuracy": 0,
        "rt_ms": 2145,
        "lateness_ms": 1245,
        "prompt_t_ms": 25860,
        "prompt_t_subtask_ms": 24418,
        "response_t_ms": 28004,
        "response_t_subtask_ms": 26563,
        "deadline_t_ms": 26760,
        "deadline_t_subtask_ms": 25318,
        "center_level": 0,
        "flanker_level": 0,
        "congruent": true,
        "reject_rule": "high_only",
        "should_reject": false,
        "closed_reason": "no_response_expire"
      },
      {
        "t_ms": 28163,
        "t_subtask_ms": 26722,
        "type": "flanker_present",
        "subtask_index": 0,
        "subtask_title": "Flanker-like",
        "stimulus_id": "fl_0_1770748145413_17",
        "trial_index": 18,
        "prompt_t_ms": 28163,
        "prompt_t_subtask_ms": 26722,
        "deadline_t_ms": 29063,
        "deadline_t_subtask_ms": 27622,
        "center_level": 2,
        "flanker_level": 0,
        "congruent": false,
        "reject_rule": "high_only",
        "should_reject": true
      },
      {
        "t_ms": 29075,
        "t_subtask_ms": 27634,
        "type": "flanker_no_response",
        "subtask_index": 0,
        "subtask_title": "Flanker-like",
        "stimulus_id": "fl_0_1770748145413_17",
        "trial_index": 18,
        "prompt_t_ms": 28163,
        "prompt_t_subtask_ms": 26722,
        "deadline_t_ms": 29063,
        "deadline_t_subtask_ms": 27622,
        "center_level": 2,
        "flanker_level": 0,
        "congruent": false,
        "reject_rule": "high_only",
        "should_reject": true
      },
      {
        "t_ms": 29157,
        "t_subtask_ms": 27715,
        "type": "flanker_late_response",
        "subtask_index": 0,
        "subtask_title": "Flanker-like",
        "stimulus_id": "fl_0_1770748145413_17",
        "trial_index": 18,
        "response": "reject",
        "response_key": "j",
        "correct": true,
        "accuracy": 1,
        "rt_ms": 993,
        "lateness_ms": 93,
        "prompt_t_ms": 28163,
        "prompt_t_subtask_ms": 26722,
        "response_t_ms": 29157,
        "response_t_subtask_ms": 27715,
        "deadline_t_ms": 29063,
        "deadline_t_subtask_ms": 27622,
        "center_level": 2,
        "flanker_level": 0,
        "congruent": false,
        "reject_rule": "high_only",
        "should_reject": true,
        "closed_reason": "no_response_expire"
      },
      {
        "t_ms": 29316,
        "t_subtask_ms": 27874,
        "type": "flanker_present",
        "subtask_index": 0,
        "subtask_title": "Flanker-like",
        "stimulus_id": "fl_0_1770748146565_18",
        "trial_index": 19,
        "prompt_t_ms": 29315,
        "prompt_t_subtask_ms": 27874,
        "deadline_t_ms": 30215,
        "deadline_t_subtask_ms": 28774,
        "center_level": 2,
        "flanker_level": 0,
        "congruent": false,
        "reject_rule": "high_only",
        "should_reject": true
      },
      {
        "t_ms": 30004,
        "t_subtask_ms": 28562,
        "type": "flanker_subtask_forced_end",
        "reason": "scheduled_end",
        "subtask_index": 0,
        "subtask_title": "Flanker-like",
        "presented": 19,
        "responded": 6,
        "correct": 5,
        "incorrect": 1,
        "omissions": 12
      },
      {
        "t_ms": 30004,
        "type": "subtask_window_hide",
        "subtask_index": 0,
        "subtask_title": "Flanker-like",
        "subtask_type": "flanker-like"
      }
    ],
    "subtasks_summary": {
      "flanker_like": [
        {
          "subtask_index": 0,
          "subtask_title": "Flanker-like",
          "started": true,
          "ended": true,
          "presented": 19,
          "responded": 6,
          "correct": 5,
          "incorrect": 1,
          "omissions": 12,
          "accuracy": 0.2631578947368421,
          "mean_rt_ms": null
        }
      ]
    },
    "plugin_version": "0.6.5",
    "trial_type": "soc-dashboard",
    "trial_index": 1,
    "time_elapsed": 30776,
    "experiment_type": "continuous",
    "config_id": "FLANKER-soc-dashboard-01"
  }
]