[
  {
    "plugin_type": "task-break",
    "code": "WCST001",
    "task_type": "soc-dashboard",
    "config_id": "WCST001-soc-dashboard-01",
    "rt": 2667,
    "stimulus": "\n      <div class=\"psy-wrap\">\n        <div class=\"psy-stage\">\n          <div class=\"psy-text\">\n            \n            <h3>Next task: soc-dashboard</h3>\n            <div class=\"psy-muted\">Code: WCST001 • Config: WCST001-soc-dashboard-01</div>\n          \n            <div class=\"psy-prompt\">Press any key to begin.</div>\n          </div>\n        </div>\n      </div>\n    ",
    "response": " ",
    "trial_type": "html-keyboard-response",
    "trial_index": 0,
    "plugin_version": "2.1.0",
    "time_elapsed": 2668
  },
  {
    "plugin_type": "html-keyboard-response",
    "code": "WCST001",
    "task_type": "soc-dashboard",
    "config_id": "WCST001-soc-dashboard-01",
    "rt": 1758,
    "stimulus": "\n        <div class=\"psy-wrap\">\n          <div class=\"psy-stage\">\n            <div class=\"psy-text\">\n              <p>This experiment consists of the <strong>SOC Dashboard</strong>. Please respond using the mouse (dashboard icons) and the keyboard (subtasks). Press any key to continue.</p>\n              \n            </div>\n          </div>\n        </div>\n      ",
    "response": " ",
    "trial_type": "html-keyboard-response",
    "trial_index": 1,
    "plugin_version": "2.1.0",
    "time_elapsed": 4427
  },
  {
    "plugin_type": "soc-dashboard",
    "task_type": "soc-dashboard",
    "original_type": "soc-subtask-wcst-like",
    "code": "WCST001",
    "config_id": "WCST001-soc-dashboard-01",
    "ended_reason": "timeout",
    "active_app": "tasks",
    "events": [
      {
        "t_ms": 6,
        "type": "key",
        "key": " "
      },
      {
        "t_ms": 1208,
        "type": "mousedown",
        "x": 1006,
        "y": 438
      },
      {
        "t_ms": 1324,
        "type": "mouseup",
        "x": 1006,
        "y": 438
      },
      {
        "t_ms": 1325,
        "type": "click",
        "x": 1006,
        "y": 438
      },
      {
        "t_ms": 1326,
        "t_subtask_ms": 0,
        "type": "wcst_subtask_start",
        "subtask_index": 0,
        "subtask_title": "WCST-like",
        "response_device": "keyboard",
        "mouse_response_mode": "click",
        "choice_keys": [
          "1",
          "2",
          "3",
          "4"
        ],
        "rules": [
          "sender_domain",
          "subject_tone",
          "link_style",
          "attachment_type"
        ],
        "rule_change_correct_streak": 8,
        "num_trials": 10,
        "sender_domains": [
          "corp.test",
          "vendor.test",
          "typo.test",
          "ip.test"
        ]
      },
      {
        "t_ms": 1633,
        "t_subtask_ms": 308,
        "type": "wcst_present",
        "subtask_index": 0,
        "subtask_title": "WCST-like",
        "trial_index": 0,
        "stimulus_id": "MAIL-1-0001",
        "rule": "sender_domain",
        "correct_target_index": 1,
        "sender_domain": "vendor.test",
        "subject_tone": "urgent",
        "link_style": "mismatch",
        "attachment_type": "docm",
        "prompt_t_ms": 1633,
        "deadline_t_ms": 4133
      },
      {
        "t_ms": 4175,
        "t_subtask_ms": 2849,
        "type": "wcst_omission",
        "reason": "deadline",
        "subtask_index": 0,
        "subtask_title": "WCST-like",
        "trial_index": 0,
        "stimulus_id": "MAIL-1-0001",
        "rule": "sender_domain",
        "prompt_t_ms": 1633,
        "deadline_t_ms": 4133
      },
      {
        "t_ms": 4476,
        "t_subtask_ms": 3150,
        "type": "wcst_present",
        "subtask_index": 0,
        "subtask_title": "WCST-like",
        "trial_index": 1,
        "stimulus_id": "MAIL-1-0002",
        "rule": "sender_domain",
        "correct_target_index": 3,
        "sender_domain": "ip.test",
        "subject_tone": "urgent",
        "link_style": "none",
        "attachment_type": "none",
        "prompt_t_ms": 4476,
        "deadline_t_ms": 6976
      },
      {
        "t_ms": 5591,
        "type": "mousedown",
        "x": 814,
        "y": 339
      },
      {
        "t_ms": 5689,
        "type": "mouseup",
        "x": 814,
        "y": 339
      },
      {
        "t_ms": 5690,
        "type": "click",
        "x": 814,
        "y": 339
      },
      {
        "t_ms": 7011,
        "t_subtask_ms": 5684,
        "type": "wcst_omission",
        "reason": "deadline",
        "subtask_index": 0,
        "subtask_title": "WCST-like",
        "trial_index": 1,
        "stimulus_id": "MAIL-1-0002",
        "rule": "sender_domain",
        "prompt_t_ms": 4476,
        "deadline_t_ms": 6976
      },
      {
        "t_ms": 7311,
        "t_subtask_ms": 5985,
        "type": "wcst_present",
        "subtask_index": 0,
        "subtask_title": "WCST-like",
        "trial_index": 2,
        "stimulus_id": "MAIL-1-0003",
        "rule": "sender_domain",
        "correct_target_index": 3,
        "sender_domain": "ip.test",
        "subject_tone": "neutral",
        "link_style": "visible",
        "attachment_type": "none",
        "prompt_t_ms": 7311,
        "deadline_t_ms": 9811
      },
      {
        "t_ms": 8585,
        "type": "mousedown",
        "x": 1226,
        "y": 408
      },
      {
        "t_ms": 8668,
        "type": "mouseup",
        "x": 1226,
        "y": 408
      },
      {
        "t_ms": 8669,
        "type": "click",
        "x": 1226,
        "y": 408
      },
      {
        "t_ms": 9845,
        "t_subtask_ms": 8519,
        "type": "wcst_omission",
        "reason": "deadline",
        "subtask_index": 0,
        "subtask_title": "WCST-like",
        "trial_index": 2,
        "stimulus_id": "MAIL-1-0003",
        "rule": "sender_domain",
        "prompt_t_ms": 7311,
        "deadline_t_ms": 9811
      },
      {
        "t_ms": 10150,
        "t_subtask_ms": 8824,
        "type": "wcst_present",
        "subtask_index": 0,
        "subtask_title": "WCST-like",
        "trial_index": 3,
        "stimulus_id": "MAIL-1-0004",
        "rule": "sender_domain",
        "correct_target_index": 1,
        "sender_domain": "vendor.test",
        "subject_tone": "urgent",
        "link_style": "shortened",
        "attachment_type": "none",
        "prompt_t_ms": 10150,
        "deadline_t_ms": 12650
      },
      {
        "t_ms": 10376,
        "t_subtask_ms": 9049,
        "type": "wcst_response",
        "subtask_index": 0,
        "subtask_title": "WCST-like",
        "trial_index": 3,
        "stimulus_id": "MAIL-1-0004",
        "rule": "sender_domain",
        "device": "keyboard",
        "response_key": "2",
        "choice_target_index": 1,
        "correct_target_index": 1,
        "correct": true,
        "accuracy": 1,
        "rt_ms": 225,
        "prompt_t_ms": 10150,
        "deadline_t_ms": 12650,
        "response_t_ms": 10376,
        "sender_domain": "vendor.test",
        "subject_tone": "urgent",
        "link_style": "shortened",
        "attachment_type": "none"
      },
      {
        "t_ms": 11135,
        "t_subtask_ms": 9810,
        "type": "wcst_present",
        "subtask_index": 0,
        "subtask_title": "WCST-like",
        "trial_index": 4,
        "stimulus_id": "MAIL-1-0005",
        "rule": "sender_domain",
        "correct_target_index": 3,
        "sender_domain": "ip.test",
        "subject_tone": "reward",
        "link_style": "visible",
        "attachment_type": "docm",
        "prompt_t_ms": 11135,
        "deadline_t_ms": 13635
      },
      {
        "t_ms": 11693,
        "t_subtask_ms": 10367,
        "type": "wcst_response",
        "subtask_index": 0,
        "subtask_title": "WCST-like",
        "trial_index": 4,
        "stimulus_id": "MAIL-1-0005",
        "rule": "sender_domain",
        "device": "keyboard",
        "response_key": "3",
        "choice_target_index": 2,
        "correct_target_index": 3,
        "correct": false,
        "accuracy": 0,
        "rt_ms": 558,
        "prompt_t_ms": 11135,
        "deadline_t_ms": 13635,
        "response_t_ms": 11693,
        "sender_domain": "ip.test",
        "subject_tone": "reward",
        "link_style": "visible",
        "attachment_type": "docm"
      },
      {
        "t_ms": 12452,
        "t_subtask_ms": 11126,
        "type": "wcst_present",
        "subtask_index": 0,
        "subtask_title": "WCST-like",
        "trial_index": 5,
        "stimulus_id": "MAIL-1-0006",
        "rule": "sender_domain",
        "correct_target_index": 2,
        "sender_domain": "typo.test",
        "subject_tone": "urgent",
        "link_style": "none",
        "attachment_type": "pdf",
        "prompt_t_ms": 12452,
        "deadline_t_ms": 14952
      },
      {
        "t_ms": 13015,
        "t_subtask_ms": 11689,
        "type": "wcst_response",
        "subtask_index": 0,
        "subtask_title": "WCST-like",
        "trial_index": 5,
        "stimulus_id": "MAIL-1-0006",
        "rule": "sender_domain",
        "device": "keyboard",
        "response_key": "3",
        "choice_target_index": 2,
        "correct_target_index": 2,
        "correct": true,
        "accuracy": 1,
        "rt_ms": 564,
        "prompt_t_ms": 12452,
        "deadline_t_ms": 14952,
        "response_t_ms": 13015,
        "sender_domain": "typo.test",
        "subject_tone": "urgent",
        "link_style": "none",
        "attachment_type": "pdf"
      },
      {
        "t_ms": 13785,
        "t_subtask_ms": 12459,
        "type": "wcst_present",
        "subtask_index": 0,
        "subtask_title": "WCST-like",
        "trial_index": 6,
        "stimulus_id": "MAIL-1-0007",
        "rule": "sender_domain",
        "correct_target_index": 0,
        "sender_domain": "corp.test",
        "subject_tone": "reward",
        "link_style": "visible",
        "attachment_type": "none",
        "prompt_t_ms": 13785,
        "deadline_t_ms": 16285
      },
      {
        "t_ms": 15590,
        "t_subtask_ms": 14264,
        "type": "wcst_response",
        "subtask_index": 0,
        "subtask_title": "WCST-like",
        "trial_index": 6,
        "stimulus_id": "MAIL-1-0007",
        "rule": "sender_domain",
        "device": "keyboard",
        "response_key": "3",
        "choice_target_index": 2,
        "correct_target_index": 0,
        "correct": false,
        "accuracy": 0,
        "rt_ms": 1806,
        "prompt_t_ms": 13785,
        "deadline_t_ms": 16285,
        "response_t_ms": 15590,
        "sender_domain": "corp.test",
        "subject_tone": "reward",
        "link_style": "visible",
        "attachment_type": "none"
      },
      {
        "t_ms": 16367,
        "t_subtask_ms": 15041,
        "type": "wcst_present",
        "subtask_index": 0,
        "subtask_title": "WCST-like",
        "trial_index": 7,
        "stimulus_id": "MAIL-1-0008",
        "rule": "sender_domain",
        "correct_target_index": 3,
        "sender_domain": "ip.test",
        "subject_tone": "urgent",
        "link_style": "visible",
        "attachment_type": "docm",
        "prompt_t_ms": 16367,
        "deadline_t_ms": 18867
      },
      {
        "t_ms": 18621,
        "t_subtask_ms": 17295,
        "type": "wcst_response",
        "subtask_index": 0,
        "subtask_title": "WCST-like",
        "trial_index": 7,
        "stimulus_id": "MAIL-1-0008",
        "rule": "sender_domain",
        "device": "keyboard",
        "response_key": "2",
        "choice_target_index": 1,
        "correct_target_index": 3,
        "correct": false,
        "accuracy": 0,
        "rt_ms": 2254,
        "prompt_t_ms": 16367,
        "deadline_t_ms": 18867,
        "response_t_ms": 18621,
        "sender_domain": "ip.test",
        "subject_tone": "urgent",
        "link_style": "visible",
        "attachment_type": "docm"
      },
      {
        "t_ms": 19402,
        "t_subtask_ms": 18076,
        "type": "wcst_present",
        "subtask_index": 0,
        "subtask_title": "WCST-like",
        "trial_index": 8,
        "stimulus_id": "MAIL-1-0009",
        "rule": "sender_domain",
        "correct_target_index": 3,
        "sender_domain": "ip.test",
        "subject_tone": "threat",
        "link_style": "visible",
        "attachment_type": "docm",
        "prompt_t_ms": 19402,
        "deadline_t_ms": 21902
      },
      {
        "t_ms": 21332,
        "t_subtask_ms": 20005,
        "type": "wcst_response",
        "subtask_index": 0,
        "subtask_title": "WCST-like",
        "trial_index": 8,
        "stimulus_id": "MAIL-1-0009",
        "rule": "sender_domain",
        "device": "keyboard",
        "response_key": "2",
        "choice_target_index": 1,
        "correct_target_index": 3,
        "correct": false,
        "accuracy": 0,
        "rt_ms": 1930,
        "prompt_t_ms": 19402,
        "deadline_t_ms": 21902,
        "response_t_ms": 21332,
        "sender_domain": "ip.test",
        "subject_tone": "threat",
        "link_style": "visible",
        "attachment_type": "docm"
      },
      {
        "t_ms": 22098,
        "t_subtask_ms": 20771,
        "type": "wcst_present",
        "subtask_index": 0,
        "subtask_title": "WCST-like",
        "trial_index": 9,
        "stimulus_id": "MAIL-1-0010",
        "rule": "sender_domain",
        "correct_target_index": 2,
        "sender_domain": "typo.test",
        "subject_tone": "urgent",
        "link_style": "none",
        "attachment_type": "none",
        "prompt_t_ms": 22098,
        "deadline_t_ms": 24598
      },
      {
        "t_ms": 23721,
        "t_subtask_ms": 22395,
        "type": "wcst_response",
        "subtask_index": 0,
        "subtask_title": "WCST-like",
        "trial_index": 9,
        "stimulus_id": "MAIL-1-0010",
        "rule": "sender_domain",
        "device": "keyboard",
        "response_key": "4",
        "choice_target_index": 3,
        "correct_target_index": 2,
        "correct": false,
        "accuracy": 0,
        "rt_ms": 1624,
        "prompt_t_ms": 22098,
        "deadline_t_ms": 24598,
        "response_t_ms": 23721,
        "sender_domain": "typo.test",
        "subject_tone": "urgent",
        "link_style": "none",
        "attachment_type": "none"
      },
      {
        "t_ms": 26274,
        "type": "key",
        "key": "8"
      },
      {
        "t_ms": 27806,
        "type": "key",
        "key": "1"
      },
      {
        "t_ms": 30010,
        "type": "subtask_window_hide",
        "subtask_index": 0,
        "subtask_title": "WCST-like",
        "subtask_type": "wcst-like"
      }
    ],
    "subtasks_summary": {
      "flanker_like": [],
      "wcst_like": [
        {
          "subtask_index": 0,
          "subtask_title": "WCST-like",
          "started": true,
          "ended": true,
          "presented": 10,
          "responded": 7,
          "correct": 2,
          "incorrect": 5,
          "omissions": 3,
          "accuracy": 0.2,
          "mean_rt_ms": 1280,
          "rule": "sender_domain",
          "rule_index": 0
        }
      ]
    },
    "plugin_version": "0.6.5",
    "trial_type": "soc-dashboard",
    "trial_index": 2,
    "time_elapsed": 34445
  }
]